time,acc_x,acc_y,acc_z,gyro_x,gyro_y,gyro_z
0.000000,0.046056,9.828418,-0.069554,0.001248,-0.003822,0.006506
0.010000,0.032819,9.804479,-0.031717,-0.004093,0.011456,0.019580
0.020000,0.051665,9.803025,0.026752,0.000305,-0.011470,-0.005792
0.030000,-0.040953,9.730146,0.024862,-0.014243,0.004435,-0.019402
0.040000,-0.013585,9.829884,-0.090865,-0.002356,-0.033284,0.020112
0.050000,-0.031247,9.790903,-0.005684,-0.001538,-0.000528,0.003706
0.060000,-0.079489,9.782212,0.010494,0.003772,-0.009061,0.002833
0.070000,0.015382,9.894140,0.068418,-0.015098,-0.004874,-0.001456
0.080000,-0.080263,9.837234,0.000147,-0.002714,0.001385,0.005254
0.090000,0.003763,9.815263,-0.034106,-0.005622,-0.007984,-0.020164
0.100000,0.017374,9.854891,-0.038694,0.012809,-0.009843,-0.010210
0.110000,-0.035001,9.826204,0.000252,0.007729,0.011379,-0.003772
0.120000,0.051516,9.770933,-0.006270,0.011679,-0.001956,-0.010428
0.130000,0.068445,9.739741,0.029821,-0.000991,-0.017398,-0.014817
0.140000,-0.088174,9.786840,-0.042704,-0.006332,-0.003212,0.012996
0.150000,0.045655,9.770408,0.056415,-0.007727,-0.005964,-0.000366
0.160000,-0.013727,9.771587,0.002253,-0.004882,-0.010750,0.005323
0.170000,0.021911,9.821923,0.017170,0.011340,-0.019533,-0.017046
0.180000,0.018118,9.841338,0.052162,-0.005291,0.001413,-0.010618
0.190000,-0.046756,9.806831,-0.030639,0.009741,-0.019258,-0.017315
0.200000,-0.027694,9.804547,0.010845,-0.021482,-0.001485,0.025448
0.210000,-0.014221,9.860024,-0.005991,-0.000434,-0.001557,0.012514
0.220000,-0.068346,9.757774,0.051424,-0.008377,-0.002181,-0.008885
0.230000,-0.005318,9.846196,-0.014953,-0.000186,-0.002866,0.008269
0.240000,0.068352,9.705063,-0.006536,0.009802,-0.003683,-0.007513
0.250000,-0.034046,9.786108,0.058578,0.000917,-0.006991,0.003403
0.260000,-0.000628,9.865265,-0.029470,-0.008669,0.007023,-0.002177
0.270000,0.083472,9.806926,-0.070912,-0.011108,-0.015964,0.003381
0.280000,-0.037711,9.831212,-0.049441,0.004553,0.003221,0.028597
0.290000,-0.005367,9.839830,-0.021262,0.005201,0.001183,-0.002528
0.300000,0.012818,9.738420,-0.091639,0.005595,-0.005782,0.016621
0.310000,0.055854,9.881003,-0.019614,0.001157,0.014562,0.012705
0.320000,0.013778,9.747837,-0.023749,0.012213,0.000656,-0.001641
0.330000,0.098661,9.841203,0.026019,0.004525,0.011882,0.016826
0.340000,0.049934,9.868021,0.011721,0.014793,-0.001999,0.006428
0.350000,0.037525,9.777075,0.020358,-0.001843,0.008659,0.010453
0.360000,-0.086185,9.834531,-0.035398,0.017860,0.003585,-0.000944
0.370000,0.105949,9.937513,-0.072486,0.015356,-0.007261,0.005210
0.380000,-0.100854,9.822919,-0.028325,0.003383,0.006175,0.003019
0.390000,0.007566,9.735318,-0.018508,-0.010403,0.009182,0.007436
0.400000,0.051164,9.859222,0.055550,0.010119,-0.003569,0.018512
0.410000,0.007417,9.803026,-0.026074,0.005869,-0.009260,0.005541
0.420000,0.065071,9.745654,-0.017517,0.007263,-0.000899,0.012078
0.430000,-0.062840,9.828145,-0.050390,0.019243,0.008530,-0.004420
0.440000,-0.014847,9.795625,0.035651,0.013647,0.016945,-0.026290
0.450000,-0.060171,9.838952,0.050939,-0.017737,-0.017803,0.003074
0.460000,-0.016443,9.850498,-0.031489,0.009357,-0.005650,0.011530
0.470000,-0.005597,9.772662,0.002182,-0.011274,0.001490,0.003542
0.480000,-0.064133,9.870339,-0.005975,-0.003206,0.008841,0.018767
0.490000,-0.015699,9.811765,-0.016851,0.002398,0.001597,-0.000485
0.500000,-0.000853,9.734348,0.075739,0.001867,-0.005814,0.000781
0.510000,0.015416,9.858316,0.029494,0.001045,0.007813,0.010306
0.520000,0.004555,9.804349,0.025047,0.003889,0.021645,0.006337
0.530000,-0.046050,9.773156,0.060799,0.006821,0.005394,0.011322
0.540000,-0.024688,9.836041,0.019340,0.012370,0.010726,-0.016954
0.550000,-0.037688,9.763262,0.057339,0.010318,0.000670,0.003095
0.560000,-0.054391,9.806641,0.001262,0.010658,0.001254,0.004042
0.570000,-0.021543,9.803027,0.050111,0.023860,0.005107,0.000803
0.580000,-0.005550,9.740255,-0.054810,0.013049,0.004625,-0.010928
0.590000,-0.008146,9.782929,-0.017004,0.009548,0.002636,0.005340
0.600000,0.015381,9.834337,0.044187,0.016282,0.000997,0.009681
0.610000,-0.061104,9.850672,-0.028480,-0.005543,-0.000205,0.006429
0.620000,-0.087560,9.901906,0.008283,0.000110,0.001016,0.001048
0.630000,0.098510,9.781713,0.028496,-0.005665,-0.003651,0.018344
0.640000,-0.023956,9.759872,0.061075,0.001581,-0.019089,-0.002012
0.650000,-0.017459,9.764476,0.005387,-0.002190,0.003212,0.006266
0.660000,0.062073,9.796218,-0.008745,0.011806,0.002320,0.004110
0.670000,0.027890,9.755954,0.043108,-0.005196,0.024964,0.000429
0.680000,0.089224,9.828942,0.012494,-0.017390,-0.008472,0.006562
0.690000,0.045217,9.808674,0.006530,0.001824,0.001740,-0.011636
0.700000,-0.058073,9.785200,0.042443,-0.009732,-0.001451,0.003193
0.710000,0.016653,9.815387,-0.001276,0.001480,-0.010225,-0.001640
0.720000,0.046026,9.765061,-0.023019,0.008384,0.003621,-0.007917
0.730000,0.038856,9.829320,0.004688,-0.006213,-0.001632,-0.004601
0.740000,0.047671,9.810017,0.017657,-0.014399,0.007041,0.010338
0.750000,0.069670,9.833478,-0.028483,0.013060,0.016222,-0.002656
0.760000,0.018262,9.722536,0.034755,0.000815,0.009103,0.004452
0.770000,-0.013606,9.846929,0.034616,-0.012538,-0.016772,0.006997
0.780000,0.031823,9.812454,0.040385,-0.000532,-0.007973,0.003402
0.790000,0.052479,9.882300,0.030217,0.003444,0.014770,-0.004457
0.800000,0.050492,9.822737,0.103291,-0.010947,0.016318,0.026730
0.810000,0.048220,9.741826,0.027335,0.012647,-0.006720,0.010265
0.820000,0.004558,9.855048,0.023539,0.000547,-0.006618,-0.003503
0.830000,-0.004645,9.777550,-0.070844,-0.002223,-0.008514,-0.000430
0.840000,0.041827,9.812922,-0.008456,-0.010394,0.000491,-0.001322
0.850000,-0.029919,9.803804,-0.045772,0.000971,0.004966,0.002175
0.860000,0.054822,9.729289,-0.048881,0.013043,0.003326,-0.000641
0.870000,0.059659,9.821977,-0.084590,0.009310,-0.007759,-0.000784
0.880000,0.107891,9.788364,0.111299,-0.001100,-0.008837,0.007724
0.890000,0.045801,9.765602,0.074365,-0.007479,-0.015968,0.005534
0.900000,-0.064324,9.856604,-0.025610,-0.008005,-0.012437,0.005151
0.910000,-0.051437,9.844707,-0.029764,0.008735,0.006426,0.000975
0.920000,0.027026,9.893708,-0.064423,-0.003863,0.022705,0.010748
0.930000,0.038428,9.787428,-0.008075,-0.005277,0.002841,0.004655
0.940000,-0.002213,9.873088,0.065638,-0.000718,-0.016206,-0.005518
0.950000,0.020371,9.809164,0.023853,0.005867,-0.007477,0.008937
0.960000,0.016790,9.755109,-0.014012,0.006227,-0.017791,-0.007179
0.970000,0.067590,9.772387,-0.020120,-0.002742,0.009652,0.005583
0.980000,-0.044764,9.715522,-0.009996,-0.003682,0.006065,0.004127
0.990000,0.084135,9.824501,-0.029804,0.003045,-0.000449,-0.001864
1.000000,0.038460,9.895190,-0.000259,0.033920,0.004578,0.011762
1.010000,0.017264,9.837590,-0.010025,0.012834,0.001412,0.000323
1.020000,0.052675,9.838176,-0.011634,0.001113,-0.006500,-0.006674
1.030000,0.044739,9.754800,0.046749,0.002288,0.005586,-0.007815
1.040000,0.063110,9.732499,-0.033976,-0.001740,0.007966,0.000660
1.050000,0.020527,9.864211,0.000993,-0.015336,-0.001585,-0.009308
1.060000,0.095675,9.891823,0.069227,0.005209,0.004613,-0.003416
1.070000,0.024650,9.801844,0.043219,0.002833,-0.011641,-0.011011
1.080000,0.029803,9.820006,-0.018227,0.004504,0.002001,0.007800
1.090000,0.085061,9.832280,0.050847,0.000822,0.002718,-0.006512
1.100000,0.008116,9.836862,-0.011614,0.004261,0.018069,0.010928
1.110000,0.056484,9.817819,0.008665,0.002028,0.016710,0.017118
1.120000,0.089277,9.784096,-0.004004,0.002158,-0.007390,0.010229
1.130000,0.016157,9.815399,-0.005817,0.007160,-0.012980,0.011757
1.140000,0.037721,9.881317,-0.057291,-0.008985,0.009016,0.005382
1.150000,0.070807,9.785782,-0.072720,-0.009513,-0.016170,-0.021594
1.160000,0.061118,9.869098,0.006989,-0.007646,0.009416,-0.003666
1.170000,0.106826,9.810316,-0.027999,-0.004481,-0.015450,0.002431
1.180000,0.118099,9.844076,0.018792,-0.003202,0.009475,0.008480
1.190000,0.109176,9.789822,0.015817,0.013178,0.021255,-0.005128
1.200000,0.103025,9.863458,-0.086459,-0.009639,0.010401,0.007070
1.210000,0.171806,9.874559,0.000360,-0.018654,0.012878,-0.002746
1.220000,0.107500,9.791470,0.015508,0.003237,-0.002482,0.007334
1.230000,0.137458,9.766078,0.014527,-0.005922,0.006316,0.010006
1.240000,0.161603,9.828975,0.005635,-0.015200,-0.011158,-0.002830
1.250000,0.150697,9.825209,-0.027910,0.011069,0.005481,0.005924
1.260000,0.122980,9.807195,-0.083507,0.003924,-0.000824,-0.006946
1.270000,0.121358,9.720334,0.020985,-0.006547,-0.007438,0.010347
1.280000,0.115547,9.748546,0.069123,-0.003357,0.004621,-0.021393
1.290000,0.180880,9.788369,-0.004097,0.004498,0.004275,0.002486
1.300000,0.179877,9.830654,0.022269,-0.014694,0.016051,-0.000391
1.310000,0.150650,9.764013,-0.022627,0.010868,-0.004746,0.000171
1.320000,0.125626,9.921051,-0.064593,0.006504,0.001196,-0.009541
1.330000,0.176534,9.880185,-0.042363,0.009356,-0.008442,0.005336
1.340000,0.122789,9.944101,0.028918,0.002033,0.002468,-0.006355
1.350000,0.137911,9.821351,0.044687,0.005725,-0.019931,0.003819
1.360000,0.164743,9.857179,-0.089950,-0.005388,0.007282,0.015526
1.370000,0.105781,9.943199,-0.032259,-0.000375,0.014939,-0.002569
1.380000,0.237665,9.824552,0.031063,0.009021,0.008642,0.003275
1.390000,0.286065,9.869008,-0.059825,-0.007354,-0.017734,-0.013532
1.400000,0.174728,9.743418,0.054064,0.007297,-0.003660,0.007221
1.410000,0.281336,9.759150,0.087157,0.004678,-0.011764,-0.001094
1.420000,0.341102,9.809819,0.031047,-0.010648,0.007149,0.002909
1.430000,0.245036,9.767502,0.005061,-0.010193,0.024041,0.019031
1.440000,0.363299,9.818207,-0.021596,0.013662,-0.013612,-0.020165
1.450000,0.305639,9.767922,-0.019578,0.002927,0.011405,0.006070
1.460000,0.287169,9.798774,-0.053679,0.001663,0.005975,-0.004303
1.470000,0.338472,9.835541,0.021201,-0.027985,-0.001353,0.001303
1.480000,0.265650,9.802116,0.069357,-0.012779,0.000928,0.010846
1.490000,0.319570,9.799678,-0.056277,-0.004519,0.001990,-0.007083
1.500000,0.309553,9.802506,-0.053597,-0.001563,-0.010737,0.002348
1.510000,0.379636,9.710622,0.051781,-0.012460,0.002292,0.007077
1.520000,0.401263,9.893461,0.060725,-0.009256,-0.005340,0.013477
1.530000,0.359553,9.760245,0.029255,-0.000573,0.002015,-0.015523
1.540000,0.351499,9.827256,-0.044954,-0.004093,0.002421,0.011645
1.550000,0.379411,9.782098,0.098262,0.001232,-0.015757,-0.006853
1.560000,0.530489,9.767904,-0.052020,-0.002401,-0.005314,-0.002332
1.570000,0.433134,9.807288,0.040276,0.017603,0.012201,-0.012289
1.580000,0.561555,9.798877,-0.017877,0.009033,-0.018322,0.015893
1.590000,0.367695,9.918651,0.049578,0.012292,-0.004256,-0.001638
1.600000,0.492915,9.826953,-0.020739,0.015936,0.007374,0.028013
1.610000,0.507481,9.771225,0.042411,0.010415,0.019765,-0.004164
1.620000,0.566129,9.827127,-0.057044,0.002444,-0.010408,0.005778
1.630000,0.602016,9.876868,0.011290,0.001380,-0.009072,-0.014714
1.640000,0.589310,9.821449,-0.038302,-0.013881,-0.017075,-0.008837
1.650000,0.602057,9.860008,0.056000,-0.005225,-0.008622,-0.000414
1.660000,0.675458,9.813878,-0.051202,0.007575,-0.006453,-0.005793
1.670000,0.652988,9.846148,-0.026973,-0.009020,-0.003800,-0.002165
1.680000,0.669612,9.857915,0.044363,0.010564,-0.002278,-0.002947
1.690000,0.715386,9.905326,-0.061764,0.007461,0.000918,0.010999
1.700000,0.655323,9.757343,0.093778,0.000311,0.002617,-0.005055
1.710000,0.702159,9.803622,-0.010134,0.005285,-0.010888,0.015429
1.720000,0.777297,9.846903,0.053226,-0.000660,-0.003639,-0.005105
1.730000,0.739144,9.842356,-0.039681,0.008799,-0.022098,-0.001318
1.740000,0.780193,9.763419,-0.031566,0.017553,0.014599,-0.012064
1.750000,0.840529,9.829241,-0.010880,0.002534,0.016652,-0.005459
1.760000,0.902790,9.749502,-0.034955,-0.003705,0.002483,0.004452
1.770000,0.935853,9.879340,-0.005700,-0.002013,0.006521,0.036693
1.780000,1.048238,9.826743,-0.090802,-0.005109,-0.001297,-0.011229
1.790000,1.028647,9.791341,0.021419,0.003859,0.007838,0.003686
1.800000,1.050865,9.785438,-0.121517,-0.011007,0.009505,0.001630
1.810000,1.022913,9.683169,-0.129473,-0.002535,0.011309,-0.002564
1.820000,1.135611,9.831817,-0.103024,-0.001778,0.011039,-0.002061
1.830000,1.183388,9.886514,-0.066451,0.009092,0.002547,0.001921
1.840000,1.244039,9.836688,0.096710,-0.004716,-0.006562,-0.006449
1.850000,1.275146,9.736740,0.001847,0.007631,0.004686,0.009004
1.860000,1.276724,9.757687,0.086813,0.008867,0.006470,0.003324
1.870000,1.358901,9.832679,-0.027853,-0.000456,-0.017085,-0.004094
1.880000,1.462906,9.792650,-0.006526,-0.015108,-0.005254,-0.006118
1.890000,1.495471,9.896118,-0.043752,0.000418,0.008742,-0.002219
1.900000,1.557205,9.773149,0.051031,0.007260,0.014038,0.011053
1.910000,1.549481,9.790420,-0.032790,0.003059,0.007139,-0.004369
1.920000,1.606817,9.808335,-0.026481,0.012134,0.020322,-0.014182
1.930000,1.752158,9.734961,0.091405,0.010315,-0.005287,0.010040
1.940000,1.684128,9.814228,-0.015455,-0.009597,0.008741,0.007244
1.950000,1.725122,9.849380,0.001964,0.000250,0.007290,0.012329
1.960000,1.772195,9.741881,0.038614,0.000111,-0.003243,-0.007410
1.970000,1.847812,9.849509,-0.079597,-0.004762,-0.001925,-0.001106
1.980000,1.889223,9.705228,0.162056,0.019578,0.004638,0.004303
1.990000,1.951261,9.801573,0.025090,-0.005013,0.004020,0.001722
2.000000,2.070696,9.815920,-0.041498,-0.001385,0.001709,-0.003865
2.010000,2.050139,9.817073,0.013135,0.022325,0.005139,0.016412
2.020000,2.239656,9.886705,0.004269,0.000530,-0.019044,0.017422
2.030000,2.233509,9.834813,0.035158,0.005050,0.005579,-0.009752
2.040000,2.372358,9.921593,0.061743,0.011110,0.001073,-0.023144
2.050000,2.394055,9.734751,0.003954,0.008941,-0.015716,0.009998
2.060000,2.432054,9.832282,0.011617,-0.002158,-0.000467,-0.001238
2.070000,2.550136,9.865406,0.064671,-0.008409,-0.012472,0.003078
2.080000,2.583156,9.856479,-0.047489,-0.004658,0.017524,0.004179
2.090000,2.541807,9.796848,0.043650,0.011357,0.011886,0.006209
2.100000,2.784604,9.799404,-0.080993,-0.009703,0.000468,-0.021560
2.110000,2.858424,9.692209,-0.001211,0.003716,0.002750,0.007160
2.120000,2.910276,9.739559,-0.043052,0.011089,-0.006445,0.016121
2.130000,3.005505,9.827124,-0.002593,-0.002050,-0.011999,-0.004150
2.140000,3.051681,9.723212,0.014754,-0.012811,-0.015784,0.001111
2.150000,3.135273,9.847696,-0.057647,-0.013794,0.003494,0.026426
2.160000,3.186235,9.854698,-0.041965,0.009352,-0.004121,-0.010446
2.170000,3.375670,9.863725,-0.009945,-0.002948,-0.014427,0.010167
2.180000,3.376292,9.905271,0.038678,0.013362,-0.011277,-0.002847
2.190000,3.459563,9.735595,-0.070361,0.011142,-0.007166,0.018396
2.200000,3.563803,9.772010,-0.028882,0.024242,-0.009386,-0.001475
2.210000,3.560840,9.846304,0.047690,0.004971,-0.007037,-0.001702
2.220000,3.676345,9.828583,-0.039474,0.000783,0.007629,-0.003514
2.230000,3.716018,9.826105,-0.011356,-0.022595,-0.001784,0.005727
2.240000,3.796631,9.750865,-0.018672,-0.004635,-0.008792,0.020240
2.250000,3.826034,9.771498,0.040919,0.001936,-0.000533,0.004025
2.260000,3.908644,9.843335,-0.038413,-0.014184,-0.001562,0.016960
2.270000,4.017374,9.849159,0.005735,-0.005651,-0.001653,-0.003326
2.280000,4.083449,9.865390,0.020544,0.004561,0.012320,0.001152
2.290000,4.072434,9.823715,0.010075,-0.001914,0.002747,0.009481
2.300000,4.186838,9.844862,0.034955,0.006525,-0.017999,-0.011129
2.310000,4.251169,9.751125,0.017943,0.011705,-0.005402,-0.001938
2.320000,4.359156,9.812816,-0.032683,0.010368,-0.015357,0.001668
2.330000,4.491599,9.770911,0.121282,-0.009526,-0.001627,-0.019939
2.340000,4.470364,9.707974,-0.045979,0.019799,-0.013602,0.011070
2.350000,4.451270,9.796235,-0.041912,-0.006379,0.004405,0.001322
2.360000,4.585800,9.820064,-0.015092,0.005625,-0.000084,0.002233
2.370000,4.576864,9.886785,0.004108,0.011683,-0.005579,-0.003771
2.380000,4.730062,9.747923,-0.017049,-0.013940,0.014003,-0.016408
2.390000,4.756033,9.751833,0.018037,0.005672,-0.012881,0.000387
2.400000,4.765865,9.797711,0.043630,0.003707,0.002917,0.002575
2.410000,4.758834,9.743800,-0.085475,0.013646,0.015888,0.009450
2.420000,4.844540,9.842510,0.019304,-0.001004,0.003158,0.002942
2.430000,4.836398,9.796824,-0.058961,-0.010046,-0.003956,0.004959
2.440000,4.888635,9.802434,-0.038970,0.001308,0.019609,-0.007635
2.450000,4.907995,9.810826,-0.033158,0.004330,0.001375,0.002320
2.460000,5.030668,9.843081,-0.037196,-0.007476,0.001903,0.011912
2.470000,4.959044,9.805144,0.029799,-0.014842,-0.015239,-0.013014
2.480000,4.956788,9.791057,-0.030281,0.000500,-0.022648,-0.011757
2.490000,5.037458,9.828755,0.076902,-0.003049,-0.005312,0.001304
2.500000,5.009440,9.833783,-0.068257,-0.004006,0.013277,0.000713
2.510000,4.911114,9.777291,-0.005097,0.000813,-0.021656,-0.009555
2.520000,5.056652,9.903411,-0.070957,0.005760,-0.005502,-0.003066
2.530000,4.971377,9.811254,0.016734,0.004263,0.001686,-0.002237
2.540000,4.909387,9.896901,-0.007159,0.001387,0.003009,-0.000834
2.550000,4.938354,9.782449,-0.019415,0.006129,0.004574,0.005327
2.560000,4.990217,9.867977,-0.018653,-0.002949,-0.003291,0.000206
2.570000,5.012603,9.754972,-0.048717,0.015626,0.015941,0.001074
2.580000,4.899000,9.825861,-0.016754,0.004562,-0.016245,-0.002633
2.590000,4.893388,9.809149,-0.024081,-0.009836,0.004357,0.007752
2.600000,4.741508,9.798119,0.029519,0.022777,0.007502,0.001530
2.610000,4.804051,9.893533,-0.003625,-0.011818,0.001573,0.005330
2.620000,4.742288,9.810905,-0.123075,-0.004624,0.007739,-0.004397
2.630000,4.680097,9.815400,0.073123,-0.005322,0.002365,-0.010249
2.640000,4.712094,9.806805,0.019269,0.018363,-0.002372,0.008045
2.650000,4.493495,9.783404,0.012155,0.004622,-0.015041,0.005776
2.660000,4.625589,9.834156,0.034483,-0.014279,-0.007418,-0.002104
2.670000,4.456865,9.775222,0.005658,-0.017440,0.003584,0.005913
2.680000,4.405137,9.779609,0.012118,-0.015486,-0.007531,-0.003159
2.690000,4.407245,9.826270,-0.003519,-0.012280,-0.004258,0.004147
2.700000,4.369792,9.680125,0.037965,0.000236,0.009809,0.012091
2.710000,4.250423,9.795832,-0.012334,-0.013190,-0.002492,-0.000505
2.720000,4.240968,9.830348,0.134304,-0.010436,-0.000486,-0.001394
2.730000,4.045458,9.805877,0.000720,0.001304,-0.018192,0.002986
2.740000,3.926371,9.768734,0.059605,-0.011302,-0.009697,-0.000973
2.750000,4.051406,9.679347,0.088389,0.003962,0.000331,-0.020711
2.760000,3.947593,9.816618,-0.068159,-0.001471,-0.012350,0.008762
2.770000,3.791534,9.804005,-0.122907,-0.000921,-0.010565,-0.002678
2.780000,3.747787,9.805785,-0.081869,0.008429,0.016713,-0.006486
2.790000,3.625871,9.829113,-0.060860,-0.000561,-0.003516,0.000014
2.800000,3.584339,9.846423,0.002436,-0.002645,-0.007936,0.003841
2.810000,3.548304,9.725861,0.125350,-0.010734,-0.005124,-0.001104
2.820000,3.436646,9.858748,0.044712,0.004521,0.003312,-0.009276
2.830000,3.342603,9.857407,-0.003861,0.003333,-0.003030,-0.000909
2.840000,3.211686,9.787391,-0.008535,-0.005649,-0.013359,-0.002772
2.850000,3.241282,9.830907,0.017982,0.026067,-0.010387,0.004417
2.860000,3.112281,9.813587,-0.019668,0.016974,0.013593,-0.001991
2.870000,3.075092,9.698575,0.080076,0.014260,0.001728,0.004695
2.880000,2.968413,9.840470,-0.029621,-0.006780,0.006621,0.005562
2.890000,2.893271,9.832681,-0.000512,-0.002235,-0.001066,0.010672
2.900000,2.804662,9.790376,0.005718,-0.006473,0.000098,-0.002304
2.910000,2.736911,9.754836,0.053691,0.006069,-0.016808,0.001335
2.920000,2.633458,9.771670,0.024073,-0.008223,-0.005507,0.005685
2.930000,2.626965,9.789696,0.033910,0.003645,-0.021556,-0.002946
2.940000,2.470784,9.900441,-0.061169,-0.004622,0.010732,-0.004378
2.950000,2.499147,9.782017,-0.019186,-0.012140,0.006487,0.017411
2.960000,2.380559,9.841453,0.058038,-0.006503,-0.009351,0.015457
2.970000,2.339349,9.794482,-0.039738,0.007248,-0.003979,-0.004222
2.980000,2.267421,9.832839,0.067581,-0.003806,-0.014857,-0.000136
2.990000,2.177952,9.756528,-0.004001,-0.017805,-0.001444,0.006333
3.000000,2.094537,9.760707,0.048496,0.006420,0.003692,0.012064
3.010000,2.054874,9.698610,-0.073034,0.014044,0.006491,-0.009383
3.020000,1.962297,9.811099,-0.096656,0.001729,0.012620,0.012439
3.030000,1.992519,9.876441,-0.058459,0.008829,0.003920,-0.001975
3.040000,1.864120,9.787285,0.053493,-0.002231,-0.016273,0.003247
3.050000,1.770464,9.770380,0.041894,0.015789,-0.003816,-0.007152
3.060000,1.733350,9.810161,0.080305,0.002453,-0.004003,-0.000875
3.070000,1.766467,9.803889,-0.003168,-0.007341,0.001169,-0.000293
3.080000,1.648373,9.839457,0.068685,-0.001748,-0.022710,-0.008774
3.090000,1.529283,9.914176,0.054061,0.006052,0.002916,0.018771
3.100000,1.511722,9.903997,-0.003240,-0.009049,0.015385,-0.007272
3.110000,1.500655,9.845566,0.041659,0.019579,0.005729,-0.016952
3.120000,1.477176,9.763880,0.002454,0.022074,0.004343,0.015433
3.130000,1.350738,9.852922,0.095182,-0.002168,0.003496,-0.018059
3.140000,1.394781,9.888433,-0.028558,0.016989,-0.017598,0.016243
3.150000,1.311268,9.725068,0.063112,0.002452,0.008961,0.003554
3.160000,1.265434,9.853721,0.049455,0.000164,-0.011671,0.002648
3.170000,1.201941,9.843239,-0.015262,0.003708,0.017390,-0.001196
3.180000,1.214888,9.788558,-0.022002,0.006967,-0.006786,-0.001882
3.190000,1.213446,9.705051,0.018837,-0.010751,-0.014670,-0.002424
3.200000,1.098245,9.802828,-0.035838,-0.011105,0.009223,-0.002519
3.210000,1.034103,9.829523,0.082812,0.003301,0.011131,0.001173
3.220000,0.913397,9.825107,0.044138,-0.004122,-0.004632,0.000306
3.230000,0.934813,9.837610,-0.001580,-0.007001,-0.009930,0.009849
3.240000,0.975411,9.762388,0.017193,-0.026552,-0.009403,-0.003893
3.250000,0.979899,9.894648,-0.002994,0.003820,-0.016081,0.005743
3.260000,0.892214,9.861404,-0.008423,0.002762,0.001873,-0.005160
3.270000,0.890238,9.810703,-0.010926,-0.026481,-0.001333,0.001591
3.280000,0.842591,9.858666,-0.005303,-0.007074,0.003370,-0.015110
3.290000,0.829189,9.806786,-0.028391,-0.000130,0.011438,-0.011326
3.300000,0.760169,9.785728,-0.013867,-0.007517,0.014829,-0.008379
3.310000,0.737747,9.822262,0.004879,0.001757,-0.004903,0.001240
3.320000,0.692040,9.773073,-0.040434,-0.002190,-0.007286,0.019380
3.330000,0.744184,9.858554,-0.049283,0.017079,0.003932,-0.006312
3.340000,0.674081,9.768902,0.035459,0.009808,-0.009363,-0.001003
3.350000,0.665924,9.742071,-0.008955,0.003711,-0.012763,0.011497
3.360000,0.618103,9.709639,-0.032580,0.000266,0.000684,0.032166
3.370000,0.615118,9.855303,0.039180,0.004483,-0.015626,0.004230
3.380000,0.634630,9.761469,0.030552,-0.002572,-0.000796,-0.004282
3.390000,0.549690,9.837713,-0.131907,0.002249,0.012827,0.016785
3.400000,0.513560,9.817391,-0.045975,-0.014326,-0.008813,-0.004729
3.410000,0.503211,9.890666,-0.022596,0.010082,0.016933,-0.000159
3.420000,0.470449,9.887419,-0.005516,-0.000034,0.010700,-0.005965
3.430000,0.489610,9.741596,-0.000420,-0.009652,0.000799,-0.010183
3.440000,0.434478,9.685585,0.055539,-0.003835,-0.005193,-0.004947
3.450000,0.475539,9.811130,0.032069,-0.014038,-0.003404,-0.004009
3.460000,0.370215,9.848684,0.006549,0.008388,0.001131,-0.010789
3.470000,0.426410,9.763997,-0.065969,0.001881,-0.007755,-0.005439
3.480000,0.403755,9.793473,-0.061608,-0.015635,-0.017942,-0.001787
3.490000,0.396054,9.766973,0.008166,-0.010857,-0.004900,0.006112
3.500000,0.360309,9.861062,-0.018761,-0.013437,-0.019158,-0.007201
3.510000,0.285686,9.870450,-0.021698,-0.000009,-0.003277,-0.002340
3.520000,0.286335,9.817753,-0.010972,0.002553,0.003498,0.002043
3.530000,0.274487,9.765115,0.040861,0.004167,0.006562,-0.012561
3.540000,0.300103,9.832534,0.091614,-0.009049,-0.018037,0.007394
3.550000,0.239403,9.864792,-0.016272,-0.004606,0.015398,0.000372
3.560000,0.413093,9.808979,0.017923,0.008203,0.002804,0.013570
3.570000,0.270927,9.758693,-0.004723,-0.016098,-0.003709,-0.000764
3.580000,0.245938,9.801967,-0.051647,-0.003032,0.002137,-0.007390
3.590000,0.215369,9.941866,0.063967,-0.012000,-0.011713,-0.002952
3.600000,0.238536,9.844699,-0.028715,0.013849,-0.004876,0.014711
3.610000,0.234192,9.770017,-0.010723,-0.016428,0.003820,-0.005497
3.620000,0.131504,9.897343,-0.028407,0.010794,-0.000397,0.009518
3.630000,0.297432,9.744472,0.045878,0.010767,0.004472,0.006158
3.640000,0.227129,9.842354,-0.006066,-0.009118,0.006755,-0.013678
3.650000,0.200360,9.881016,0.062903,-0.013191,0.011791,-0.007662
3.660000,0.078995,9.770189,-0.024654,0.006775,-0.001094,-0.020143
3.670000,0.208098,9.800962,0.000241,0.010723,0.019052,0.007246
3.680000,0.158940,9.890057,-0.071196,-0.014095,0.006247,-0.001729
3.690000,0.183222,9.868980,-0.050221,0.005710,-0.000305,-0.002315
3.700000,0.238225,9.802260,-0.034556,-0.002053,0.009482,0.014772
3.710000,0.137729,9.796121,-0.052644,0.008118,0.002245,-0.008641
3.720000,0.084651,9.748997,-0.015005,0.005561,-0.027155,-0.010111
3.730000,0.178892,9.828245,-0.011677,0.000626,-0.015293,-0.001042
3.740000,0.200569,9.863732,0.023044,0.000395,-0.003321,-0.005858
3.750000,0.149025,9.846607,-0.024940,0.013371,0.014395,-0.017303
3.760000,0.018016,9.759545,-0.028044,0.007668,-0.003058,-0.003885
3.770000,0.209175,9.848603,0.032606,-0.003395,0.002985,-0.014843
3.780000,0.092620,9.877796,0.063166,0.011649,0.000129,-0.006479
3.790000,0.080715,9.787433,0.076078,-0.000268,0.010213,-0.020141
3.800000,0.244523,9.841376,0.054787,-0.004616,-0.011740,-0.005007
3.810000,0.040371,9.819653,0.025336,-0.009579,-0.005076,-0.004243
3.820000,0.126710,9.814014,0.008382,0.008396,-0.005121,-0.001403
3.830000,0.020651,9.777133,-0.068651,0.010159,0.002150,0.015780
3.840000,0.117831,9.833140,-0.060720,0.007119,-0.002242,-0.012988
3.850000,0.127343,9.751488,0.067471,0.003925,-0.011442,0.007110
3.860000,0.140992,9.837354,-0.110768,-0.012906,0.004616,0.006245
3.870000,-0.032419,9.762056,0.027376,-0.004984,0.009533,-0.007764
3.880000,0.178731,9.871486,0.042446,-0.004187,0.003862,0.007050
3.890000,0.130916,9.829322,-0.075684,0.004160,-0.025639,0.007279
3.900000,0.041366,9.856041,0.130423,0.008857,-0.004743,0.000628
3.910000,-0.032147,9.861503,-0.033448,-0.003590,0.002403,0.005803
3.920000,-0.015841,9.815125,-0.013002,0.017528,0.006887,-0.011505
3.930000,0.108239,9.726163,0.086880,-0.000506,-0.006450,0.010765
3.940000,0.070531,9.866551,0.055448,-0.014195,-0.007345,0.005913
3.950000,0.099190,9.889413,0.011262,0.002886,0.003854,-0.003332
3.960000,0.017755,9.800999,0.005594,-0.008279,0.007778,0.007972
3.970000,0.073417,9.810248,0.000709,0.006492,0.010329,0.008704
3.980000,0.058857,9.898305,0.057355,-0.004173,0.000853,-0.005683
3.990000,0.032573,9.830106,-0.029039,0.004519,0.004240,0.011146
4.000000,0.102760,9.859702,-0.088806,-0.006381,0.003808,-0.006848
4.010000,-0.031564,9.828668,-0.028742,0.013006,-0.007507,-0.000183
4.020000,-0.025539,9.806210,-0.019307,0.003920,-0.006738,0.004229
4.030000,0.020802,9.801060,0.058686,-0.007650,0.005211,-0.007890
4.040000,0.024335,9.741219,0.056042,0.010462,0.013529,-0.000860
4.050000,-0.015709,9.778231,0.047223,0.001582,0.011763,-0.001305
4.060000,0.037286,9.804412,-0.033765,0.007841,-0.014407,-0.001300
4.070000,-0.011912,9.802208,-0.107645,0.009037,0.006133,0.006276
4.080000,-0.017958,9.810169,-0.045253,0.000749,0.009492,0.007545
4.090000,-0.002443,9.759531,-0.028184,0.007260,-0.004753,-0.013146
4.100000,0.038122,9.822162,0.020260,-0.000694,0.016644,0.006851
4.110000,0.077335,9.780678,0.008046,0.010608,-0.002383,0.005991
4.120000,0.052196,9.844298,0.014605,-0.011978,-0.006008,0.011251
4.130000,0.077079,9.821811,-0.020295,-0.005357,0.023738,0.014154
4.140000,0.156543,9.860623,-0.043219,0.008783,-0.003800,0.007266
4.150000,0.033488,9.811497,-0.044359,-0.005620,0.005040,0.022995
4.160000,0.032151,9.799658,-0.098203,-0.005872,-0.003584,0.006866
4.170000,0.041171,9.791801,-0.024364,0.000055,-0.024710,-0.019755
4.180000,0.024946,9.765430,-0.056948,-0.004214,-0.012013,0.000947
4.190000,0.030565,9.803837,0.067235,0.002655,-0.011368,0.006244
4.200000,0.089015,9.758080,-0.002720,0.006471,0.002854,-0.006250
4.210000,0.024613,9.825876,-0.039738,-0.011139,-0.009012,0.007304
4.220000,-0.012623,9.822368,-0.038781,-0.001776,-0.006078,0.007669
4.230000,0.038570,9.810943,-0.020937,0.006889,-0.013936,-0.017040
4.240000,-0.063770,9.844363,-0.019196,0.002056,-0.002863,0.010073
4.250000,0.066673,9.821862,0.068652,-0.009080,-0.010742,0.005906
4.260000,0.044802,9.809224,0.050885,0.006409,0.023423,0.012416
4.270000,0.020206,9.794580,0.029150,-0.003341,-0.001256,-0.014480
4.280000,-0.040489,9.731297,0.001422,-0.007099,-0.004957,-0.009345
4.290000,0.014060,9.851680,0.043104,0.001313,-0.008309,0.006023
4.300000,0.056070,9.815857,-0.056710,0.017290,0.002928,0.000209
4.310000,-0.042610,9.820801,0.040527,0.000253,-0.005010,-0.009271
4.320000,0.015880,9.792509,0.066403,-0.012898,0.001705,0.014605
4.330000,-0.001520,9.797470,0.024959,-0.006946,0.005002,-0.019448
4.340000,0.018995,9.872570,0.011195,-0.005661,0.011484,-0.020481
4.350000,-0.039615,9.789313,-0.067638,0.005760,-0.003529,0.007899
4.360000,0.049601,9.769572,-0.108743,-0.003222,-0.002152,0.023892
4.370000,0.028802,9.857293,0.077341,-0.012692,0.035672,0.010286
4.380000,0.012037,9.730774,-0.102548,0.005936,0.001118,-0.009207
4.390000,-0.000065,9.817365,-0.017002,-0.009388,-0.007754,-0.005012
4.400000,-0.010104,9.841314,0.032242,0.011777,-0.000530,0.002668
4.410000,-0.035399,9.779988,-0.048034,0.016302,-0.012279,-0.004980
4.420000,-0.049633,9.759730,-0.015550,0.002717,-0.001711,0.001470
4.430000,0.030733,9.800604,-0.025540,-0.005213,-0.002663,-0.003136
4.440000,0.022121,9.839466,-0.010841,-0.001281,0.007122,0.004497
4.450000,-0.001214,9.793630,0.072003,-0.008561,-0.003988,-0.001655
4.460000,-0.057414,9.780376,-0.079306,-0.010988,-0.007565,-0.009136
4.470000,0.054710,9.850919,0.024275,-0.011324,-0.005593,-0.004337
4.480000,-0.011914,9.857475,0.050784,-0.017657,0.007992,0.001489
4.490000,0.071647,9.887747,-0.044074,-0.016830,0.014900,0.004831
4.500000,-0.024083,9.878903,0.014347,-0.013762,0.017436,-0.002322
4.510000,-0.025720,9.727012,0.036734,-0.000922,0.004375,-0.000452
4.520000,0.005353,9.826559,-0.056337,0.018959,0.002170,0.002948
4.530000,-0.053967,9.798743,-0.023398,-0.011190,-0.013307,0.006981
4.540000,0.038149,9.851470,0.018549,0.000860,0.007315,0.005583
4.550000,-0.043642,9.820988,0.041525,-0.002461,-0.010006,-0.002185
4.560000,0.042705,9.768161,-0.033870,0.003587,-0.000909,-0.011739
4.570000,0.065527,9.764127,-0.120377,-0.027539,-0.017862,-0.021650
4.580000,-0.061914,9.865175,-0.032919,-0.013184,0.006261,-0.005086
4.590000,-0.002164,9.762509,0.046287,0.007846,-0.002566,-0.001196
4.600000,0.062176,9.773309,0.062973,-0.002953,-0.004689,-0.000892
4.610000,0.013150,9.818387,-0.026151,0.001910,0.006574,-0.001052
4.620000,-0.022462,9.812757,-0.020332,-0.001104,-0.001364,0.008478
4.630000,0.029101,9.881621,0.077946,-0.016439,-0.011133,0.012816
4.640000,0.029328,9.925658,0.044567,0.009648,-0.000237,-0.001406
4.650000,-0.013061,9.764166,-0.001846,0.000009,-0.002976,-0.007862
4.660000,-0.000973,9.806695,0.076079,0.015603,-0.009913,-0.007241
4.670000,0.031174,9.826933,0.127930,0.003423,0.006365,0.006557
4.680000,-0.006510,9.895298,0.059672,-0.000152,-0.001468,-0.007131
4.690000,0.082797,9.825830,-0.007273,-0.002268,0.001964,-0.008612
4.700000,0.000178,9.804146,0.036763,-0.004857,-0.015582,-0.002069
4.710000,0.007916,9.817175,-0.005881,0.004143,0.005802,0.010681
4.720000,0.081541,9.772043,0.005146,0.001197,-0.003066,-0.008264
4.730000,-0.109050,9.850186,-0.008979,0.003391,-0.003477,0.005811
4.740000,0.109468,9.799097,0.000181,0.014875,-0.004909,0.013718
4.750000,-0.044491,9.855913,-0.067352,-0.001361,0.009980,0.002279
4.760000,-0.078572,9.840381,0.022492,0.010088,0.011786,-0.009441
4.770000,-0.025582,9.830979,-0.074046,0.001261,-0.001695,0.020907
4.780000,0.019334,9.777063,0.084855,-0.001765,0.022575,-0.003263
4.790000,0.056338,9.788173,0.030771,0.020123,0.009078,0.002079
4.800000,-0.050118,9.801840,0.034366,0.001245,-0.008636,-0.003509
4.810000,-0.028018,9.774797,-0.114943,0.003399,0.010845,-0.003523
4.820000,-0.011404,9.781214,-0.041512,-0.008851,-0.020949,-0.015160
4.830000,0.004694,9.847215,0.028468,0.010621,0.005354,0.007397
4.840000,0.053137,9.913338,-0.011850,-0.004651,-0.001970,-0.026115
4.850000,-0.072678,9.774511,-0.054564,-0.000212,0.003728,-0.010036
4.860000,-0.035180,9.823365,-0.020962,0.005887,-0.002910,0.006287
4.870000,-0.012059,9.731814,0.003731,0.032368,-0.006977,-0.001808
4.880000,-0.043760,9.862724,0.010453,0.003038,0.011857,-0.004045
4.890000,-0.048169,9.804209,-0.039489,-0.018769,-0.008435,0.000605
4.900000,-0.094204,9.814084,-0.009615,0.002736,-0.006756,0.000755
4.910000,0.047017,9.775729,-0.041086,0.015629,0.002674,-0.001758
4.920000,0.102340,9.736328,0.063245,0.000035,0.002417,-0.007503
4.930000,0.017759,9.784825,-0.047706,-0.004778,0.015394,0.003069
4.940000,-0.019559,9.830773,0.021813,0.002717,-0.003306,-0.002490
4.950000,-0.026428,9.850917,0.055678,-0.002952,0.012003,-0.001010
4.960000,0.049319,9.769409,0.046775,-0.001860,0.003443,-0.019081
4.970000,0.073645,9.911658,-0.002086,0.000643,-0.000369,0.012919
4.980000,-0.014162,9.904957,-0.023882,-0.000057,-0.002463,-0.017916
4.990000,0.023553,9.759187,0.077718,0.016349,0.015952,-0.016505
5.000000,0.019564,9.821803,0.046587,-0.020650,0.003548,-0.025871
5.010000,0.050063,9.800958,-0.060445,-0.016027,0.005284,-0.007388
5.020000,-0.005948,9.883023,-0.078135,-0.006413,0.007908,0.002981
5.030000,0.033482,9.770194,0.014562,0.007585,0.017438,0.006900
5.040000,0.009635,9.840034,-0.000175,-0.005528,0.004394,-0.018992
5.050000,0.078409,9.845709,-0.039926,-0.005611,-0.007996,-0.011749
5.060000,-0.055933,9.881612,0.017109,-0.006830,-0.016980,-0.025422
5.070000,-0.046182,9.823950,0.013551,0.007508,0.006202,-0.007328
5.080000,0.022634,9.807590,0.010344,-0.022334,-0.000467,0.010798
5.090000,-0.033160,9.812308,-0.028076,-0.016544,-0.008048,-0.007545
5.100000,0.058132,9.842034,-0.046026,0.005200,-0.008342,0.002110
5.110000,-0.032406,9.839146,-0.022454,0.009716,0.001510,0.003841
5.120000,0.029691,9.868587,0.033381,-0.004197,-0.024247,-0.011753
5.130000,0.001098,9.781983,-0.005017,0.000547,0.006794,0.006472
5.140000,0.013988,9.921405,0.023115,0.008991,-0.002347,0.010899
5.150000,-0.005806,9.798173,0.076879,0.020049,0.024966,-0.002742
5.160000,-0.098844,9.873982,0.013412,-0.010793,-0.003618,0.023160
5.170000,-0.102354,9.867675,-0.069763,0.014350,0.005763,0.001845
5.180000,-0.059914,9.881218,0.015275,-0.006271,0.016250,0.003588
5.190000,-0.055972,9.916232,0.001617,-0.003509,-0.018602,-0.005245
5.200000,0.001542,9.789637,0.046745,-0.011466,-0.008551,0.003248
5.210000,-0.005990,9.919487,-0.022528,0.018719,0.012609,0.006021
5.220000,-0.034182,9.723414,-0.011141,0.016335,-0.016027,-0.013613
5.230000,0.044732,9.780872,0.072198,0.025703,-0.001461,0.013411
5.240000,0.024756,9.777196,0.060462,0.005273,-0.007339,-0.017466
5.250000,-0.104453,9.720621,-0.012625,-0.007716,0.013576,-0.001191
5.260000,0.082327,9.789347,-0.067174,0.006734,-0.013229,0.001813
5.270000,-0.069428,9.764382,0.106434,-0.004150,0.000682,-0.012537
5.280000,0.009304,9.888561,0.036414,0.004628,-0.011786,-0.004263
5.290000,0.015076,9.824657,0.004610,-0.018112,-0.004737,0.000273
5.300000,0.008418,9.835445,-0.012837,-0.009092,-0.010262,-0.000583
5.310000,0.027152,9.774083,-0.014090,0.004725,-0.001322,0.003565
5.320000,-0.014587,9.725825,0.040489,-0.007944,0.009667,0.002869
5.330000,-0.015223,9.737171,0.005212,0.005819,0.009827,-0.010556
5.340000,-0.031733,9.798070,0.017190,-0.002398,-0.008426,0.001817
5.350000,-0.019628,9.800937,-0.006969,0.015610,0.007815,-0.000468
5.360000,0.046251,9.880280,0.052096,-0.001207,0.004717,-0.002326
5.370000,-0.004180,9.757065,-0.027305,0.003867,0.004859,0.002452
5.380000,0.060272,9.752344,0.027350,-0.006674,-0.006268,-0.001964
5.390000,-0.018080,9.862327,-0.003541,0.005484,0.002028,0.010248
5.400000,-0.061799,9.772824,-0.071980,-0.002154,0.005191,-0.001230
5.410000,-0.133495,9.790233,0.059512,-0.009090,-0.000343,-0.007718
5.420000,-0.025441,9.812386,0.135258,-0.024019,-0.024939,-0.011905
5.430000,0.013371,9.829583,0.056725,0.005488,0.008449,-0.000567
5.440000,-0.021252,9.859376,0.036928,-0.009110,-0.007585,0.008344
5.450000,-0.004619,9.861112,0.024087,0.011305,-0.009481,-0.007995
5.460000,0.020237,9.753822,0.121120,-0.003169,-0.003488,-0.005242
5.470000,0.004133,9.818948,0.088959,0.002273,0.000814,0.008441
5.480000,-0.018709,9.828393,-0.077072,-0.011602,0.000827,-0.002850
5.490000,0.002513,9.735837,0.120337,-0.016096,-0.003367,-0.004417
5.500000,-0.044073,9.771426,0.049961,-0.007782,-0.006495,-0.014620
5.510000,0.124211,9.778193,0.000257,-0.007717,-0.001421,0.000575
5.520000,0.029517,9.809677,0.047930,-0.011763,0.001565,0.013080
5.530000,0.013802,9.870156,0.055417,0.006126,0.008417,-0.009904
5.540000,-0.056404,9.854257,0.020191,0.012683,0.004443,-0.018739
5.550000,0.020806,9.885025,0.047665,-0.012723,-0.007634,0.009188
5.560000,-0.080277,9.774158,0.032672,0.015742,-0.010086,-0.010219
5.570000,-0.023860,9.831891,-0.038136,-0.017130,0.014064,-0.000453
5.580000,0.039733,9.708779,-0.034858,-0.003978,-0.008342,0.011459
5.590000,-0.054968,9.764742,0.030470,-0.009172,0.000467,-0.005026
5.600000,-0.008677,9.924350,0.042539,0.014994,0.003232,0.009301
5.610000,0.007389,9.841101,0.046954,-0.009969,0.005315,0.000882
5.620000,0.068045,9.870533,-0.023330,-0.004529,0.000166,-0.011249
5.630000,-0.017617,9.818721,-0.026755,0.014538,-0.004025,-0.025036
5.640000,0.050617,9.809585,-0.032959,-0.000244,-0.005423,0.002054
5.650000,-0.039298,9.839869,0.052103,0.004291,0.009833,-0.014775
5.660000,0.038269,9.761166,0.007582,-0.012160,-0.002156,0.013517
5.670000,-0.006715,9.773273,0.015766,-0.003270,-0.006853,-0.004798
5.680000,0.065520,9.844521,-0.114243,0.003543,-0.009587,0.005108
5.690000,-0.037293,9.793466,-0.098678,-0.011264,-0.012238,0.001185
5.700000,-0.043438,9.796758,-0.051716,0.011478,0.001655,0.017198
5.710000,-0.009580,9.770012,0.082252,0.002560,-0.009239,0.010461
5.720000,-0.069407,9.793613,0.042392,0.002511,0.004619,-0.003072
5.730000,0.024883,9.837897,-0.010194,-0.003144,-0.008342,-0.005625
5.740000,-0.015182,9.770047,0.069516,-0.001615,0.008099,0.001220
5.750000,-0.106261,9.841045,-0.093854,-0.016737,0.015431,-0.002758
5.760000,-0.028223,9.757378,-0.029651,0.022541,0.001255,0.000801
5.770000,0.026020,9.869567,0.000781,-0.002462,0.003437,0.008872
5.780000,0.050709,9.813256,0.005045,0.007917,0.011000,0.009841
5.790000,0.039334,9.843415,0.140082,-0.013502,0.012155,0.003073
5.800000,0.023843,9.747097,-0.015333,0.000691,-0.008617,0.007956
5.810000,-0.011619,9.872906,0.030112,0.006668,-0.003990,-0.017615
5.820000,0.065756,9.876394,0.027169,0.008497,0.007331,0.007624
5.830000,-0.054584,9.759073,-0.063085,-0.001561,0.008042,-0.004758
5.840000,-0.119875,9.755468,0.028310,0.019869,0.016637,0.017055
5.850000,-0.008967,9.852474,-0.030936,0.001527,-0.001793,-0.004780
5.860000,-0.018402,9.814485,-0.005782,0.000434,-0.013523,0.018176
5.870000,0.024574,9.849666,0.022223,-0.006978,0.000803,0.000530
5.880000,-0.039661,9.736796,0.009011,-0.006064,-0.009590,-0.003242
5.890000,0.019238,9.810088,0.086012,-0.006211,0.007899,0.007708
5.900000,0.002187,9.829456,0.027328,0.004283,0.007947,0.004199
5.910000,-0.021154,9.825877,0.000148,0.002303,0.001147,-0.022306
5.920000,0.083553,9.730296,0.029032,0.006142,-0.009659,-0.009279
5.930000,0.029406,9.886730,0.058347,0.013898,0.010810,0.000597
5.940000,-0.063594,9.808036,-0.010046,0.018827,0.003077,0.001595
5.950000,0.018502,9.814876,-0.013078,-0.005311,-0.003999,0.003403
5.960000,0.013060,9.838741,0.069225,0.007003,0.002773,0.008225
5.970000,0.050621,9.897474,-0.009818,-0.001171,0.014282,-0.005462
5.980000,0.050390,9.842082,-0.002580,0.010631,-0.017020,0.013498
5.990000,-0.042915,9.783768,0.094590,0.003833,0.018083,0.006285
6.000000,-0.048461,9.787346,0.022147,-0.011255,0.004374,0.024485
6.010000,-0.027741,9.811551,-0.030941,-0.013133,-0.001477,-0.004675
6.020000,0.016363,9.817761,-0.008095,-0.012276,0.005941,0.012251
6.030000,-0.079068,9.852488,-0.054740,0.014080,-0.006109,0.003280
6.040000,-0.007040,9.802901,0.073056,-0.005805,-0.010814,0.007622
6.050000,0.001887,9.851279,0.032051,-0.002743,0.017161,0.010480
6.060000,-0.020229,9.914971,0.016795,-0.010751,0.015450,0.001769
6.070000,0.002703,9.877639,0.002970,-0.000957,0.002131,-0.004369
6.080000,-0.011858,9.813373,0.049634,-0.006204,-0.004199,-0.018839
6.090000,-0.002019,9.741897,-0.064101,-0.017952,-0.001406,0.003931
6.100000,-0.057881,9.792234,0.055262,0.009645,0.011080,-0.011382
6.110000,-0.175814,9.807309,-0.053760,-0.016927,0.014836,-0.003144
6.120000,-0.027412,9.835047,-0.035692,-0.000847,0.001689,0.005300
6.130000,-0.014594,9.780775,0.028389,-0.004844,0.006192,0.002264
6.140000,-0.022160,9.774221,-0.055557,0.006725,-0.011082,-0.006379
6.150000,0.021357,9.875343,-0.029376,0.004331,-0.007758,-0.016244
6.160000,-0.018953,9.822128,-0.015908,0.015001,-0.011010,0.009348
6.170000,-0.031588,9.814371,0.045871,-0.005650,0.004512,0.011460
6.180000,-0.023794,9.919492,0.012456,0.014664,-0.009059,-0.000437
6.190000,0.028327,9.722758,-0.003297,0.005039,-0.002059,-0.006120
6.200000,-0.088680,9.670284,0.036260,0.012322,0.013281,-0.012235
6.210000,-0.134960,9.793352,-0.028062,-0.006965,-0.004513,0.003826
6.220000,-0.055109,9.818416,0.020858,-0.021452,0.010257,0.005594
6.230000,-0.076430,9.832347,0.014746,0.013337,0.016668,-0.017584
6.240000,-0.072250,9.766861,-0.034243,-0.009485,0.014685,0.003015
6.250000,-0.101585,9.875159,-0.000578,0.003973,-0.014929,-0.014476
6.260000,-0.018077,9.793758,0.013621,0.012682,0.004933,0.007109
6.270000,-0.097998,9.818793,0.022428,-0.001092,0.007941,0.006849
6.280000,-0.144874,9.783929,-0.083182,-0.007966,-0.000589,0.005806
6.290000,-0.020953,9.779492,0.021958,-0.011061,0.005092,-0.002811
6.300000,0.014851,9.793319,0.136350,0.007072,-0.004394,-0.001636
6.310000,-0.059276,9.792220,0.044427,-0.004524,-0.010606,-0.000364
6.320000,0.006557,9.814513,0.077268,-0.002624,-0.005178,0.004426
6.330000,-0.135338,9.769687,-0.000195,0.004535,-0.009614,0.005087
6.340000,-0.069959,9.836372,-0.011407,-0.000998,-0.011249,0.010889
6.350000,-0.112538,9.811212,0.049142,-0.011872,-0.007210,-0.032241
6.360000,-0.045882,9.866758,-0.000760,0.005631,-0.013424,-0.009447
6.370000,-0.243072,9.780332,-0.042230,-0.021731,-0.008490,0.021850
6.380000,-0.128045,9.902114,0.062386,-0.015398,0.007946,0.007058
6.390000,-0.092277,9.855752,-0.016602,-0.004230,-0.006140,0.000342
6.400000,-0.092471,9.781360,-0.002433,-0.000481,-0.009538,0.003210
6.410000,-0.109323,9.798440,0.051390,0.001112,-0.005931,0.003889
6.420000,-0.137006,9.706497,-0.023569,-0.010311,-0.000263,0.015661
6.430000,-0.068239,9.795081,-0.051174,-0.002042,-0.012893,0.005847
6.440000,-0.155836,9.866653,0.043430,-0.009373,-0.004416,0.011842
6.450000,-0.121523,9.798455,0.000881,-0.002935,0.000353,-0.004789
6.460000,-0.259021,9.810024,-0.062686,-0.012176,-0.010443,-0.014543
6.470000,-0.109744,9.804694,0.076051,0.004257,0.004434,-0.003338
6.480000,-0.190334,9.820915,0.047496,-0.013283,0.008109,-0.005088
6.490000,-0.167916,9.826983,-0.039535,0.010306,-0.007486,0.008493
6.500000,-0.108599,9.826337,-0.062939,-0.002755,0.011754,-0.001325
6.510000,-0.175484,9.794522,-0.071840,0.012499,0.002198,-0.004486
6.520000,-0.043952,9.741043,0.060594,0.004030,0.004221,0.010987
6.530000,-0.194329,9.784059,0.000766,0.004774,-0.008641,-0.012879
6.540000,-0.153958,9.869763,-0.024956,0.006703,0.008593,-0.000751
6.550000,-0.150131,9.748704,0.030175,0.017100,-0.003002,0.001823
6.560000,-0.196322,9.773127,-0.039622,-0.009383,0.000683,-0.016884
6.570000,-0.233444,9.915130,-0.004457,-0.011930,-0.000329,-0.007506
6.580000,-0.132428,9.777965,0.044216,-0.002163,0.002288,0.023292
6.590000,-0.229793,9.908967,0.016012,0.010125,-0.003717,0.003779
6.600000,-0.196813,9.789548,0.047115,-0.010827,0.006805,0.003507
6.610000,-0.228092,9.835705,-0.044804,-0.000040,-0.003289,-0.003524
6.620000,-0.218709,9.947000,-0.061140,-0.005744,-0.013491,0.016345
6.630000,-0.199796,9.807296,0.007067,-0.016441,0.005997,0.016236
6.640000,-0.201575,9.883247,-0.060951,-0.019620,0.016388,-0.002048
6.650000,-0.249179,9.855035,0.032581,0.002522,0.008546,-0.001896
6.660000,-0.284248,9.817167,0.040393,-0.007430,-0.014583,0.007704
6.670000,-0.226041,9.760581,0.019485,0.005640,-0.000192,-0.004751
6.680000,-0.194941,9.867202,0.085134,0.012082,-0.009708,-0.008738
6.690000,-0.375375,9.847777,-0.013504,0.022951,0.003192,0.000782
6.700000,-0.324680,9.778599,0.029057,-0.010855,-0.019578,0.015834
6.710000,-0.232705,9.803592,0.045610,0.001476,-0.016605,-0.013275
6.720000,-0.397484,9.810894,0.096421,-0.005008,0.008249,-0.010458
6.730000,-0.373341,9.762976,0.006086,0.005581,0.004900,0.001079
6.740000,-0.330444,9.785467,0.036844,0.008262,0.015736,0.007168
6.750000,-0.304518,9.752996,0.028971,0.009678,0.002558,0.012335
6.760000,-0.424035,9.773848,0.102443,0.010969,0.004656,-0.003323
6.770000,-0.342150,9.759093,0.022563,-0.026291,0.011283,-0.020144
6.780000,-0.325974,9.848587,0.016530,-0.008415,-0.002589,-0.009456
6.790000,-0.434524,9.823478,-0.017687,-0.007591,0.001389,-0.000226
6.800000,-0.341999,9.837042,0.028877,0.011927,0.018666,-0.000563
6.810000,-0.424773,9.795112,-0.017878,0.011565,-0.012870,0.004546
6.820000,-0.473741,9.824905,-0.033427,-0.023568,0.000343,-0.022824
6.830000,-0.480862,9.766035,-0.066902,0.000945,0.011400,0.005796
6.840000,-0.453978,9.804973,0.062846,0.016163,0.003655,0.009259
6.850000,-0.546587,9.806542,0.045174,-0.015868,-0.010227,-0.015303
6.860000,-0.538268,9.884324,-0.002218,0.003930,-0.009929,0.002763
6.870000,-0.654023,9.762643,-0.099125,0.000713,-0.011104,0.014203
6.880000,-0.498588,9.812744,-0.003374,-0.005549,-0.012512,-0.019306
6.890000,-0.586092,9.932174,0.024837,-0.004411,-0.001672,-0.009144
6.900000,-0.635527,9.770825,0.041694,0.004184,-0.004037,0.004637
6.910000,-0.707693,9.839655,0.005251,-0.009452,0.011195,-0.009263
6.920000,-0.654050,9.820769,0.013071,-0.014010,-0.007408,-0.017979
6.930000,-0.575439,9.799998,0.028880,-0.002039,0.004150,0.015486
6.940000,-0.695761,9.778128,-0.016354,-0.024892,0.003556,0.010120
6.950000,-0.685403,9.794629,-0.042649,-0.012935,-0.005657,0.002565
6.960000,-0.711578,9.872286,0.034208,-0.007722,0.010911,0.015014
6.970000,-0.649760,9.766334,0.085279,-0.007968,-0.003091,-0.001510
6.980000,-0.807812,9.802729,0.011983,-0.006725,-0.012261,0.005947
6.990000,-0.810424,9.777154,0.094895,0.008881,-0.009049,-0.005924
7.000000,-0.777737,9.837039,0.003031,0.005755,0.004471,-0.007022
7.010000,-0.885797,9.744857,-0.055789,0.002235,-0.006088,0.011437
7.020000,-0.867760,9.867367,-0.011434,-0.002021,0.003146,0.011014
7.030000,-0.873092,9.850378,-0.081724,0.012563,0.002647,-0.025737
7.040000,-0.960132,9.808537,-0.063035,0.009310,0.022006,0.006094
7.050000,-1.002314,9.801683,0.057989,-0.009375,0.021380,-0.001875
7.060000,-1.087467,9.862397,-0.005243,-0.004879,-0.009927,-0.008539
7.070000,-1.003948,9.820092,-0.079417,0.000655,-0.006421,0.014058
7.080000,-1.029836,9.808954,0.037762,0.002310,0.002984,0.010367
7.090000,-1.153712,9.832706,0.075395,0.006795,-0.010443,-0.004181
7.100000,-1.054359,9.799039,-0.051463,-0.006789,-0.001644,-0.002283
7.110000,-1.226620,9.785662,-0.017528,-0.001297,-0.006142,0.010404
7.120000,-1.173623,9.782703,-0.072323,-0.012484,-0.001115,-0.011889
7.130000,-1.184837,9.788093,-0.003660,-0.003385,-0.014061,-0.002650
7.140000,-1.197150,9.879797,0.053716,0.014109,0.013758,0.012421
7.150000,-1.305789,9.758699,-0.023684,0.003188,-0.004809,-0.003357
7.160000,-1.266212,9.820786,0.022718,0.003873,0.006269,0.001282
7.170000,-1.244820,9.828758,-0.030946,-0.001494,0.001789,0.005730
7.180000,-1.339308,9.697445,0.015498,-0.010761,0.012849,0.001167
7.190000,-1.385232,9.827037,-0.033426,-0.001719,0.007104,-0.013320
7.200000,-1.485579,9.775114,0.056465,-0.006375,0.005023,0.009306
7.210000,-1.459275,9.769718,-0.034137,0.005890,-0.010481,-0.006707
7.220000,-1.497499,9.737731,-0.024336,0.006148,0.006078,0.007052
7.230000,-1.556400,9.804300,-0.025657,-0.000072,0.000262,-0.002320
7.240000,-1.467660,9.759726,-0.023131,0.005697,0.004387,-0.000354
7.250000,-1.612563,9.831145,0.049384,0.012370,0.000282,-0.001119
7.260000,-1.539726,9.766649,0.090432,-0.011792,0.006823,0.010413
7.270000,-1.563914,9.869323,0.034183,-0.000765,0.003644,0.009605
7.280000,-1.577951,9.806344,0.014454,-0.003460,0.002859,0.001780
7.290000,-1.696629,9.726612,0.008935,0.002793,-0.013786,0.018813
7.300000,-1.659555,9.731676,-0.026039,-0.029578,0.009336,0.016584
7.310000,-1.653878,9.776034,-0.048174,-0.005861,-0.008741,0.020030
7.320000,-1.766400,9.905306,-0.022895,0.011997,0.004929,-0.001032
7.330000,-1.841931,9.756964,0.039361,-0.000209,-0.001258,-0.012823
7.340000,-1.810562,9.840098,0.042640,-0.006125,-0.021056,0.013506
7.350000,-1.832307,9.770398,0.093502,-0.003983,0.008724,0.010110
7.360000,-1.913066,9.879893,0.060127,-0.000570,-0.007275,-0.011610
7.370000,-1.840743,9.830068,0.009250,-0.011316,-0.008122,-0.006713
7.380000,-1.948308,9.899168,-0.094764,0.001834,-0.001370,0.000282
7.390000,-1.880978,9.788997,-0.037822,-0.005543,0.015107,-0.003554
7.400000,-1.884214,9.844733,-0.020900,0.002800,0.003640,-0.022896
7.410000,-1.912124,9.746450,0.034452,-0.007476,-0.007682,0.001416
7.420000,-1.891661,9.746268,-0.015433,-0.010743,0.008171,0.003964
7.430000,-1.984546,9.846959,0.041863,-0.000504,0.008238,0.003928
7.440000,-1.914389,9.822911,0.042663,0.007206,-0.004025,0.014855
7.450000,-1.959353,9.812209,0.059949,-0.011897,-0.010108,-0.002695
7.460000,-1.928769,9.676444,-0.075168,0.009461,0.004059,-0.007852
7.470000,-1.938717,9.802751,0.028710,0.006814,0.006030,0.013742
7.480000,-2.051294,9.795453,-0.036516,0.002262,-0.003460,0.002203
7.490000,-2.056830,9.701748,-0.049784,0.004863,0.002570,0.009898
7.500000,-2.113915,9.876264,0.031236,-0.004101,0.008749,-0.023099
7.510000,-2.029589,9.786150,0.120318,0.012269,-0.001426,-0.008433
7.520000,-2.027749,9.806737,0.073136,-0.002323,-0.000023,0.008366
7.530000,-1.944253,9.813447,-0.017530,-0.005073,0.015087,-0.003629
7.540000,-2.042734,9.808407,0.038793,-0.013286,0.000712,0.011793
7.550000,-2.039246,9.801614,-0.026482,0.008811,0.001208,-0.003108
7.560000,-1.924322,9.852864,-0.004976,-0.004968,-0.006032,-0.000728
7.570000,-1.955823,9.765547,-0.032509,0.005252,0.005432,-0.001907
7.580000,-2.003647,9.760491,-0.042699,0.014371,-0.002445,0.017201
7.590000,-1.941005,9.846420,0.040470,0.010352,0.000259,-0.007964
7.600000,-1.808139,9.776993,-0.022388,-0.014189,-0.012603,-0.005496
7.610000,-1.899227,9.847600,0.018344,0.003051,0.005966,0.012839
7.620000,-1.847323,9.835273,-0.015481,-0.012406,-0.015920,0.011157
7.630000,-1.935920,9.833620,-0.029590,0.008064,0.006857,0.013403
7.640000,-1.746754,9.736401,-0.055131,-0.009548,0.002881,0.006325
7.650000,-1.841006,9.793500,0.051144,-0.007237,-0.010123,0.007548
7.660000,-1.768375,9.781953,-0.005762,0.018884,0.013237,0.008628
7.670000,-1.856578,9.908988,0.115155,0.000183,0.000473,-0.010195
7.680000,-1.853294,9.860376,0.038139,0.011670,0.001043,-0.005098
7.690000,-1.742984,9.789601,0.012295,0.003362,0.000481,0.016718
7.700000,-1.785041,9.816130,0.032263,0.013814,0.005360,0.025464
7.710000,-1.674399,9.823926,0.081104,-0.005452,0.005247,-0.006640
7.720000,-1.656342,9.922716,-0.005235,0.035637,-0.012503,0.012374
7.730000,-1.622883,9.781919,-0.024427,-0.016218,0.004711,-0.006073
7.740000,-1.647502,9.782497,0.011814,0.004800,0.003869,0.002993
7.750000,-1.609543,9.901599,0.034986,-0.007116,0.020260,-0.001968
7.760000,-1.537876,9.719334,0.061085,-0.005122,-0.002366,-0.010884
7.770000,-1.561136,9.814550,-0.027253,0.010484,0.005866,0.015683
7.780000,-1.490714,9.805376,-0.002192,-0.005931,-0.002529,0.000590
7.790000,-1.540354,9.805533,0.029850,-0.006683,0.020826,0.014440
7.800000,-1.360341,9.723540,-0.056397,-0.008004,0.024656,-0.005293
7.810000,-1.471958,9.813500,0.020699,-0.012581,0.008865,0.006331
7.820000,-1.432713,9.673666,0.096090,0.005697,0.015564,-0.002886
7.830000,-1.465043,9.779150,0.068541,-0.018974,-0.006197,0.005389
7.840000,-1.323366,9.779362,0.075277,-0.018519,0.012906,-0.013686
7.850000,-1.191260,9.830911,0.093431,-0.005859,-0.003642,-0.015377
7.860000,-1.258935,9.780933,0.055251,0.002916,-0.005504,-0.008701
7.870000,-1.198973,9.754831,-0.086762,-0.014042,0.007478,0.002458
7.880000,-1.159271,9.789634,-0.027300,-0.023566,-0.002076,0.010294
7.890000,-1.221945,9.866610,0.002101,-0.009014,0.018123,0.008868
7.900000,-1.159545,9.850015,0.028725,0.011983,0.005436,-0.015046
7.910000,-1.123535,9.819536,0.004092,0.000873,-0.008257,-0.006035
7.920000,-1.086737,9.798539,0.032754,0.022787,0.002290,-0.001460
7.930000,-1.026116,9.904784,0.026532,0.007003,-0.008147,0.014477
7.940000,-1.063506,9.791553,-0.000902,0.015668,-0.003709,-0.008394
7.950000,-0.949648,9.798260,-0.001186,0.002741,-0.015049,-0.016977
7.960000,-0.969600,9.757074,0.014468,-0.007278,-0.012519,0.014447
7.970000,-0.931753,9.814321,-0.003276,-0.008144,-0.003817,0.002788
7.980000,-0.914731,9.813833,-0.069089,-0.008402,-0.014423,0.010508
7.990000,-0.830071,9.827575,0.110033,-0.000896,0.000473,-0.008085
8.000000,-0.872824,9.807245,-0.060522,0.002553,-0.008288,0.012098
8.010000,-0.915689,9.864742,0.024060,0.007604,-0.005145,0.010032
8.020000,-0.839841,9.881428,-0.009589,0.006599,0.015191,-0.006289
8.030000,-0.745907,9.866403,-0.050048,-0.011889,-0.003009,0.004918
8.040000,-0.725002,9.791678,-0.014070,-0.012595,-0.015333,0.021166
8.050000,-0.704992,9.860881,-0.051062,0.000656,-0.002403,-0.005081
8.060000,-0.684729,9.797711,-0.050735,0.022939,-0.021404,0.001665
8.070000,-0.635033,9.933412,-0.039265,-0.006990,-0.012452,-0.015751
8.080000,-0.690174,9.736995,0.162580,0.018275,-0.006719,-0.012880
8.090000,-0.567636,9.813047,-0.009369,0.007120,0.010581,-0.013157
8.100000,-0.594006,9.783467,0.067617,-0.023392,-0.009685,0.008114
8.110000,-0.610964,9.732402,0.033784,-0.013725,-0.009853,-0.006731
8.120000,-0.587203,9.810335,0.017497,-0.012870,0.006133,0.003556
8.130000,-0.524760,9.734327,0.073106,-0.000723,-0.015041,-0.001151
8.140000,-0.487368,9.824808,0.116539,-0.005362,0.007622,-0.011078
8.150000,-0.559313,9.720470,0.000515,-0.002726,-0.002661,-0.012143
8.160000,-0.467076,9.813253,-0.017060,-0.003683,-0.001558,-0.000319
8.170000,-0.523404,9.833129,0.038500,-0.013138,0.008671,-0.008610
8.180000,-0.619746,9.799528,0.006867,-0.012574,-0.000925,-0.011934
8.190000,-0.504277,9.865789,0.101482,0.013773,0.009599,0.009654
8.200000,-0.456459,9.828001,0.007703,-0.005406,-0.004348,-0.011382
8.210000,-0.472556,9.824010,-0.043816,-0.006349,0.006159,-0.002825
8.220000,-0.420424,9.808706,-0.078219,0.001780,-0.014854,0.014526
8.230000,-0.435330,9.724443,-0.001856,-0.009225,-0.017644,0.003724
8.240000,-0.320827,9.861346,0.020551,0.004772,-0.004762,0.014686
8.250000,-0.448461,9.887201,-0.002261,-0.018081,0.010632,-0.008493
8.260000,-0.440244,9.808067,0.054788,-0.002713,-0.015009,0.005613
8.270000,-0.324606,9.729131,0.081806,0.014224,-0.012806,0.005917
8.280000,-0.319535,9.838693,0.061636,0.018753,-0.005342,-0.024669
8.290000,-0.326731,9.858003,0.044036,0.004802,-0.003596,-0.001643
8.300000,-0.298875,9.798822,-0.049250,0.010865,0.004441,-0.009467
8.310000,-0.271201,9.859365,-0.019119,-0.004256,-0.010385,-0.002656
8.320000,-0.240551,9.895113,-0.088983,-0.017008,-0.020048,0.001637
8.330000,-0.278476,9.835306,0.014080,-0.003198,-0.012397,-0.012492
8.340000,-0.213718,9.762006,-0.080506,-0.009368,0.010728,-0.002994
8.350000,-0.253371,9.802402,-0.021812,0.007501,-0.020550,-0.014688
8.360000,-0.363239,9.889858,0.061557,-0.018203,-0.013840,-0.007258
8.370000,-0.307147,9.794861,-0.034134,0.003011,-0.000736,0.014291
8.380000,-0.235819,9.946899,0.073156,-0.004605,0.004058,0.003711
8.390000,-0.144245,9.779146,-0.063127,-0.017755,0.001874,-0.019328
8.400000,-0.230389,9.744394,0.068103,0.005064,-0.001586,0.011988
8.410000,-0.282224,9.896406,-0.030475,0.002316,0.009333,0.022096
8.420000,-0.146079,9.755293,-0.006570,-0.010103,-0.006745,-0.007751
8.430000,-0.199869,9.811151,-0.024518,0.013205,-0.012727,-0.015289
8.440000,-0.156579,9.888724,-0.030798,-0.011309,-0.001402,0.001483
8.450000,-0.079736,9.852886,-0.034582,-0.004822,-0.002351,0.021064
8.460000,-0.134978,9.794205,0.004936,0.010991,-0.006923,-0.000997
8.470000,-0.122371,9.878678,0.038017,0.001188,0.007611,0.004949
8.480000,-0.141885,9.734318,-0.047877,-0.013729,-0.005801,-0.008499
8.490000,-0.219300,9.801217,0.029642,0.007454,0.009769,0.006993
8.500000,-0.164945,9.795506,-0.063667,0.001409,-0.004760,0.010321
8.510000,-0.129853,9.921515,-0.047446,0.007710,-0.022659,-0.012843
8.520000,-0.123642,9.805446,0.002810,0.006774,-0.008763,-0.015168
8.530000,-0.226220,9.922039,0.034113,0.005241,-0.007757,0.017018
8.540000,-0.124081,9.828422,-0.052427,-0.002559,0.001884,0.004808
8.550000,-0.121642,9.828178,-0.004508,-0.002069,-0.005979,-0.016798
8.560000,-0.117334,9.777026,0.015714,-0.003171,0.002371,0.002682
8.570000,-0.266838,9.838996,-0.070987,0.033651,0.006419,0.001184
8.580000,-0.038019,9.912557,-0.082330,-0.021774,-0.010043,-0.003051
8.590000,-0.091796,9.772267,-0.124015,0.004709,-0.004595,-0.012444
8.600000,-0.099664,9.751808,0.038270,0.004218,-0.003661,0.006750
8.610000,-0.070114,9.778494,-0.042303,-0.000019,-0.008647,-0.006779
8.620000,-0.072474,9.908249,0.066914,0.003485,-0.006152,-0.008855
8.630000,-0.036404,9.814137,-0.042531,-0.002599,0.015902,0.001204
8.640000,-0.039779,9.948534,0.096016,-0.007689,-0.009479,0.002603
8.650000,-0.172087,9.704562,0.052823,0.032195,0.018523,-0.019494
8.660000,-0.108346,9.867316,0.039961,0.006644,0.008129,0.011122
8.670000,-0.057373,9.842312,0.030911,-0.020976,-0.001848,0.011858
8.680000,-0.029779,9.890065,0.023952,0.004621,-0.006274,0.011173
8.690000,-0.093777,9.846606,0.013776,-0.007926,-0.013560,0.011001
8.700000,-0.017387,9.780885,0.043994,-0.001354,0.000511,-0.001076
8.710000,-0.022906,9.786440,-0.065485,-0.008339,0.014418,-0.014320
8.720000,-0.041156,9.827619,-0.026565,0.013571,-0.007594,-0.008536
8.730000,0.019403,9.715297,-0.038905,0.001097,-0.001061,0.000965
8.740000,-0.084314,9.747559,-0.024874,-0.011090,0.001246,0.008407
8.750000,-0.061159,9.795498,-0.075285,-0.019035,0.007736,0.019646
8.760000,-0.060540,9.741328,0.101569,0.009350,-0.004141,-0.029322
8.770000,0.028560,9.802415,0.011207,0.004829,-0.002264,-0.004414
8.780000,-0.021179,9.779111,0.064479,0.006333,-0.008499,-0.003722
8.790000,-0.009167,9.815612,-0.024157,0.014875,-0.002697,0.009964
8.800000,-0.028452,9.793307,-0.023498,-0.004153,0.023987,0.010902
8.810000,-0.083949,9.689478,-0.029989,-0.007560,0.011954,0.003046
8.820000,-0.010584,9.787777,-0.036131,0.006160,0.000297,0.014193
8.830000,-0.074593,9.796933,0.013707,0.006800,-0.016194,0.003459
8.840000,-0.038266,9.819921,-0.042256,0.009170,-0.014992,0.002881
8.850000,-0.082215,9.774384,0.025269,0.007095,-0.006047,-0.011003
8.860000,-0.051877,9.762163,-0.042081,-0.008450,0.012663,-0.005842
8.870000,-0.062047,9.847815,0.059394,0.011089,0.004001,-0.012896
8.880000,-0.085784,9.801946,0.005743,-0.017164,-0.012437,-0.004429
8.890000,-0.008278,9.722557,0.009957,0.003117,-0.013259,0.013674
8.900000,-0.020881,9.846369,0.038527,-0.009717,0.001426,-0.023625
8.910000,-0.069138,9.711674,0.003829,-0.004361,-0.000784,-0.014775
8.920000,0.014387,9.812106,-0.004565,-0.012950,0.005690,-0.000262
8.930000,-0.051991,9.698996,-0.059612,-0.000496,0.005227,-0.005566
8.940000,-0.074927,9.768175,-0.058664,0.010481,0.018562,-0.006514
8.950000,-0.024629,9.754756,-0.048201,-0.018198,0.012566,0.018675
8.960000,-0.004454,9.846227,0.006813,-0.008216,0.006307,0.020629
8.970000,-0.082071,9.769367,0.046674,0.000767,-0.011110,0.007983
8.980000,-0.015832,9.732392,0.051098,0.012900,0.011895,-0.013697
8.990000,0.022378,9.901857,0.011963,-0.006455,0.017537,-0.004756
9.000000,-0.118939,9.867498,0.057562,0.007785,-0.004033,0.009183
9.010000,-0.091746,9.814785,0.074577,-0.007460,0.006927,0.000840
9.020000,0.009478,9.861581,0.038827,0.022227,0.003986,-0.019002
9.030000,0.102339,9.827611,0.068866,-0.024347,-0.007454,0.003632
9.040000,-0.064863,9.773668,0.062892,-0.001187,-0.008089,-0.001817
9.050000,-0.030187,9.785410,-0.024522,-0.005303,0.003541,0.008329
9.060000,-0.083623,9.839501,0.011372,0.006257,-0.000480,0.000984
9.070000,0.094726,9.895580,-0.006936,-0.019790,-0.019953,0.003753
9.080000,-0.027047,9.792741,-0.051672,-0.021454,-0.001255,0.003344
9.090000,-0.059559,9.900167,0.017959,-0.021976,0.010568,-0.028876
9.100000,-0.014797,9.807776,0.048663,0.006415,-0.001672,0.007511
9.110000,0.104376,9.786426,0.053903,-0.007062,-0.001979,-0.001529
9.120000,-0.014863,9.838763,-0.114138,0.001217,0.010720,-0.003355
9.130000,-0.069873,9.861085,-0.017538,0.015828,0.005345,-0.001605
9.140000,-0.009768,9.858962,0.037662,-0.007194,-0.000555,0.005395
9.150000,0.007727,9.818013,-0.058941,0.008707,0.006412,-0.006428
9.160000,0.065743,9.731217,0.023496,-0.009860,0.013794,0.000517
9.170000,-0.002817,9.805250,0.089274,-0.006906,0.012505,0.001201
9.180000,0.077402,9.853456,0.049290,0.024351,-0.011229,0.008149
9.190000,0.003373,9.772598,-0.022680,0.000203,-0.002478,0.013980
9.200000,-0.029442,9.880625,-0.076612,-0.002323,-0.012973,0.016903
9.210000,0.074577,9.878815,0.060646,0.015378,-0.000961,-0.006291
9.220000,0.029141,9.848751,-0.048935,-0.005712,0.006750,0.003578
9.230000,0.068760,9.835752,-0.050352,-0.012847,0.013472,0.007353
9.240000,-0.010314,9.788645,0.045914,0.008902,0.000560,0.017570
9.250000,-0.015248,9.818875,-0.047548,-0.009037,0.007405,-0.005717
9.260000,-0.004160,9.790468,-0.008376,0.018878,0.002897,-0.005663
9.270000,0.037705,9.877246,-0.021253,-0.003644,-0.011466,-0.023559
9.280000,0.067813,9.797004,0.013450,-0.014896,0.017556,0.008086
9.290000,0.002346,9.862538,0.062787,-0.001958,-0.002912,0.003470
9.300000,-0.010917,9.778446,0.017126,0.009545,0.014695,0.012504
9.310000,-0.009650,9.825263,0.001046,-0.017068,0.010325,-0.004942
9.320000,0.081747,9.862982,0.043090,0.005947,0.013539,0.012551
9.330000,-0.015460,9.808949,-0.040261,-0.002844,0.006732,0.000456
9.340000,0.017561,9.782623,0.044810,-0.008976,0.002650,0.015240
9.350000,-0.013018,9.871580,0.031497,0.002561,-0.004735,0.006051
9.360000,-0.139163,9.768037,0.018906,-0.010214,-0.004405,-0.009368
9.370000,0.060929,9.862998,0.072258,-0.013138,0.016518,-0.005339
9.380000,-0.027354,9.774808,-0.098236,-0.008818,-0.000097,0.014949
9.390000,0.048506,9.784206,0.028886,-0.019452,-0.009488,0.004172
9.400000,-0.032868,9.873340,0.016103,0.013160,0.002849,0.004087
9.410000,-0.021384,9.850286,-0.092944,0.003186,0.001888,0.005069
9.420000,-0.054753,9.799928,0.069923,0.005449,0.004439,-0.001206
9.430000,-0.067463,9.847952,0.047672,0.006436,-0.001957,-0.006521
9.440000,-0.008971,9.739229,0.084901,-0.014757,0.003347,-0.004743
9.450000,-0.020815,9.716402,-0.062492,-0.004192,-0.000673,0.016072
9.460000,0.100404,9.757908,0.008241,-0.004362,-0.000225,-0.006450
9.470000,0.031994,9.729087,0.008288,-0.002593,0.014480,-0.001199
9.480000,-0.038227,9.819882,0.009232,-0.005962,-0.003413,0.008920
9.490000,0.023004,9.896816,-0.034570,-0.001561,-0.006106,-0.004549
9.500000,-0.083978,9.764548,-0.022122,0.005464,0.012520,0.001585
9.510000,0.024649,9.826218,0.066895,-0.015067,0.015272,-0.003088
9.520000,-0.029542,9.791258,0.049554,-0.000670,0.002806,0.007009
9.530000,-0.002063,9.814729,-0.082359,-0.003465,-0.005014,-0.002632
9.540000,-0.058630,9.784264,-0.007203,0.001649,0.000178,-0.000433
9.550000,0.041208,9.765216,0.040103,0.003842,0.013220,-0.001110
9.560000,-0.019416,9.755159,-0.043731,0.000002,-0.001379,-0.001559
9.570000,-0.122084,9.838109,-0.005582,-0.002184,0.010136,-0.007825
9.580000,-0.013819,9.811010,-0.030605,-0.013457,0.015119,0.000520
9.590000,0.010044,9.861375,-0.017348,0.008110,-0.011338,-0.005961
9.600000,0.012134,9.846074,-0.092228,0.003010,-0.000444,0.000558
9.610000,0.062350,9.734963,-0.003090,0.008482,0.000576,0.004473
9.620000,0.057370,9.871781,-0.046249,0.010290,0.017669,0.011887
9.630000,0.023832,9.818273,-0.005718,0.000696,-0.023516,0.010807
9.640000,-0.024551,9.813511,0.147284,-0.008493,0.012194,-0.016438
9.650000,0.027456,9.740950,-0.027645,-0.004981,0.002424,0.003066
9.660000,-0.035928,9.783356,-0.022321,0.009985,0.015255,-0.010083
9.670000,-0.044396,9.847286,0.080201,-0.000589,-0.007702,0.003696
9.680000,0.044554,9.778932,-0.050394,0.005344,-0.007431,0.000929
9.690000,0.013779,9.839379,-0.013032,0.017013,0.011601,-0.021297
9.700000,0.077270,9.748601,0.070348,0.007317,-0.011723,0.006875
9.710000,-0.001560,9.861785,0.015904,0.008055,-0.021028,0.014225
9.720000,0.105045,9.794246,0.096425,0.013782,0.010243,0.007074
9.730000,-0.061208,9.776497,-0.101652,-0.011179,-0.011147,0.009627
9.740000,0.051135,9.816360,-0.077835,0.004760,-0.004878,0.011543
9.750000,0.012412,9.793997,0.021088,0.029646,-0.002210,-0.012509
9.760000,-0.102100,9.826932,0.014200,0.014150,-0.016652,-0.018669
9.770000,0.023814,9.824443,-0.016073,-0.001249,-0.004504,-0.004719
9.780000,0.000098,9.743163,-0.037679,0.000855,-0.016063,0.006114
9.790000,0.055193,9.867670,0.080995,-0.012243,-0.009092,0.000227
9.800000,-0.098421,9.799601,-0.007684,-0.004430,-0.003000,-0.005891
9.810000,-0.046356,9.890961,0.041679,0.002421,0.005068,0.013047
9.820000,-0.001456,9.856498,-0.101595,-0.010134,-0.013901,0.012493
9.830000,0.057342,9.835601,-0.043244,-0.005508,0.001764,-0.002040
9.840000,-0.090269,9.906977,0.051789,-0.017574,-0.006775,-0.001305
9.850000,-0.073449,9.804489,-0.087586,-0.000407,-0.015171,0.015000
9.860000,-0.015918,9.794201,-0.016931,-0.016708,0.007840,0.010399
9.870000,0.040733,9.848111,0.015592,-0.006005,-0.015481,-0.009762
9.880000,-0.029622,9.827201,-0.037910,0.003534,0.008777,0.000241
9.890000,0.023664,9.798031,-0.044585,-0.006979,-0.003378,-0.001838
9.900000,-0.052774,9.820805,-0.050239,-0.001223,-0.002299,-0.001553
9.910000,-0.040512,9.801657,-0.013299,-0.002403,-0.012111,0.001937
9.920000,-0.016072,9.761132,0.046563,0.000506,-0.004151,-0.016865
9.930000,0.099598,9.754983,-0.006485,-0.006032,-0.005082,-0.001237
9.940000,-0.065932,9.798910,-0.060721,-0.006645,-0.013301,-0.004443
9.950000,0.034766,9.764527,0.101058,0.003867,0.009165,0.016793
9.960000,-0.039104,9.867332,-0.024253,0.018464,0.004351,0.005508
9.970000,-0.020510,9.829777,-0.031543,0.003624,-0.002934,-0.008534
9.980000,-0.076054,9.847853,0.060120,0.001917,-0.009755,-0.016932
9.990000,-0.042389,9.825881,0.060400,-0.002561,-0.008403,0.004165
10.000000,-0.010045,9.811876,0.001875,0.006039,-0.013744,-0.018506
